# f/kHz, H, S, H, S


100     13.9    5.6     13.9    6.78
200     14      4.24    14      6.6
300     14.1    2.1     14.1    5.67
400     14.15   2.81    14.15   7.54
500     14.2    2.67    14.2    8.58
600     14.26   2.39    14.26   9.49
700     14.32   2.33    14.4    7.04
800     14.36   3.16    14.48   6.85
900     14.4    3.37    14.6    5.87
1000    14.46   3.36    14.72   3.71